Merged spectral data

 274.41; 0.00776
 275.01; 0.00766
 275.61; 0.00644
 276.22; 0.00615
 276.82; 0.00432
 277.42; 0.00580
 278.03; 0.00692
 278.63; 0.00772
 279.24; 0.00495
 279.84; 0.00460
 280.44; 0.00427
 281.05; 0.00885
 281.65; 0.00756
 282.25; 0.00913
 282.86; 0.00783
 283.46; 0.00970
 284.06; 0.00853
 284.67; 0.00854
 285.27; 0.00804
 285.87; 0.01019
 286.48; 0.00920
 287.08; 0.00966
 287.68; 0.00794
 288.29; 0.00869
 288.89; 0.00721
 289.49; 0.00872
 290.10; 0.00984
 290.70; 0.01357
 291.30; 0.01301
 291.91; 0.01522
 292.51; 0.01436
 293.11; 0.01608
 293.72; 0.01296
 294.32; 0.01416
 294.92; 0.01084
 295.52; 0.01206
 296.13; 0.01179
 296.73; 0.01871
 297.33; 0.01598
 297.94; 0.01774
 298.54; 0.01214
 299.14; 0.01690
 299.74; 0.01851
 300.35; 0.01995
 300.95; 0.01629
 301.55; 0.01370
 302.15; 0.01275
 302.76; 0.01335
 303.36; 0.01283
 303.96; 0.01480
 304.56; 0.01659
 305.17; 0.01730
 305.77; 0.01908
 306.37; 0.01933
 306.97; 0.01779
 307.58; 0.02066
 308.18; 0.02015
 308.78; 0.02836
 309.38; 0.02854
 309.98; 0.03130
 310.59; 0.02256
 311.19; 0.02505
 311.79; 0.02391
 312.39; 0.02350
 313.00; 0.01970
 313.60; 0.02210
 314.20; 0.02587
 314.80; 0.03038
 315.40; 0.03316
 316.01; 0.03468
 316.61; 0.02857
 317.21; 0.02831
 317.81; 0.02270
 318.41; 0.02833
 319.01; 0.02704
 319.62; 0.04231
 320.22; 0.03968
 320.82; 0.04603
 321.42; 0.03406
 322.02; 0.04070
 322.62; 0.03156
 323.23; 0.03697
 323.83; 0.02888
 324.43; 0.03929
 325.03; 0.03971
 325.63; 0.05221
 326.23; 0.04613
 326.83; 0.05077
 327.44; 0.04101
 328.04; 0.04174
 328.64; 0.03787
 329.24; 0.04297
 329.84; 0.05173
 330.44; 0.05438
 331.04; 0.05686
 331.64; 0.06561
 332.24; 0.06705
 332.85; 0.06781
 333.45; 0.04824
 334.05; 0.05282
 334.65; 0.05159
 335.25; 0.06437
 335.85; 0.05847
 336.45; 0.05793
 337.05; 0.05272
 337.65; 0.06457
 338.25; 0.07277
 338.85; 0.08198
 339.46; 0.06357
 340.06; 0.06674
 340.66; 0.06291
 341.26; 0.07703
 341.86; 0.07762
 342.46; 0.07381
 343.06; 0.06392
 343.66; 0.05595
 344.26; 0.05788
 344.86; 0.06849
 345.46; 0.06911
 346.06; 0.06999
 346.66; 0.07158
 347.26; 0.06508
 347.86; 0.06534
 348.46; 0.07239
 349.06; 0.07645
 349.66; 0.08537
 350.26; 0.07545
 350.86; 0.09017
 351.46; 0.07662
 352.06; 0.08765
 352.66; 0.07467
 353.26; 0.08421
 353.86; 0.06688
 354.46; 0.07374
 355.06; 0.07145
 355.66; 0.08042
 356.26; 0.07157
 356.86; 0.08159
 357.46; 0.08029
 358.06; 0.09713
 358.66; 0.10074
 359.26; 0.11130
 359.86; 0.09907
 360.46; 0.09551
 361.06; 0.08455
 361.66; 0.08537
 362.26; 0.07622
 362.86; 0.09648
 363.46; 0.08820
 364.06; 0.10702
 364.66; 0.09423
 365.26; 0.11048
 365.86; 0.09247
 366.46; 0.09711
 367.06; 0.09653
 367.66; 0.11350
 368.25; 0.10434
 368.85; 0.09954
 369.45; 0.09362
 370.05; 0.10783
 370.65; 0.10270
 371.25; 0.10425
 371.85; 0.08935
 372.45; 0.10110
 373.05; 0.10017
 373.65; 0.10764
 374.25; 0.10629
 374.84; 0.11551
 375.44; 0.11239
 376.04; 0.11027
 376.64; 0.11106
 377.24; 0.12643
 377.84; 0.12312
 378.44; 0.11991
 379.04; 0.09917
 379.63; 0.11237
 380.23; 0.11510
 380.83; 0.12735
 381.43; 0.12594
 382.03; 0.13083
 382.63; 0.11885
 383.23; 0.11703
 383.82; 0.11571
 384.42; 0.12337
 385.02; 0.12431
 385.62; 0.12628
 386.22; 0.12208
 386.82; 0.12482
 387.41; 0.11692
 388.01; 0.12678
 388.61; 0.12846
 389.21; 0.13497
 389.81; 0.12705
 390.41; 0.13312
 391.00; 0.13501
 391.60; 0.14897
 392.20; 0.13438
 392.80; 0.14178
 393.40; 0.14508
 393.99; 0.15500
 394.59; 0.15371
 395.19; 0.14931
 395.79; 0.15922
 396.39; 0.17411
 396.98; 0.17058
 397.58; 0.16678
 398.18; 0.15935
 398.78; 0.16851
 399.37; 0.16747
 399.97; 0.17400
 400.57; 0.17163
 401.17; 0.17049
 401.76; 0.16515
 402.36; 0.17114
 402.96; 0.17268
 403.56; 0.17632
 404.15; 0.16808
 404.75; 0.17400
 405.35; 0.17602
 405.95; 0.18387
 406.54; 0.18162
 407.14; 0.19120
 407.74; 0.19344
 408.33; 0.19805
 408.93; 0.19755
 409.53; 0.20028
 410.13; 0.19494
 410.72; 0.20252
 411.32; 0.20524
 411.92; 0.21578
 412.51; 0.20828
 413.11; 0.21405
 413.71; 0.21455
 414.30; 0.22591
 414.90; 0.22430
 415.50; 0.23217
 416.09; 0.23370
 416.69; 0.24382
 417.29; 0.24017
 417.88; 0.24038
 418.48; 0.23612
 419.08; 0.24667
 419.67; 0.25844
 420.27; 0.26760
 420.87; 0.26418
 421.46; 0.25941
 422.06; 0.25921
 422.66; 0.26908
 423.25; 0.26948
 423.85; 0.27767
 424.45; 0.27828
 425.04; 0.28552
 425.64; 0.28171
 426.23; 0.28445
 426.83; 0.29021
 427.43; 0.29728
 428.02; 0.30036
 428.62; 0.30580
 429.22; 0.30756
 429.81; 0.31451
 430.41; 0.31559
 431.00; 0.32541
 431.60; 0.32900
 432.20; 0.33423
 432.79; 0.33198
 433.39; 0.33843
 433.98; 0.33962
 434.58; 0.34927
 435.17; 0.34927
 435.77; 0.35727
 436.37; 0.36028
 436.96; 0.36817
 437.56; 0.36881
 438.15; 0.37914
 438.75; 0.37887
 439.34; 0.38432
 439.94; 0.38687
 440.53; 0.39405
 441.13; 0.40254
 441.73; 0.40918
 442.32; 0.41433
 442.92; 0.41960
 443.51; 0.41977
 444.11; 0.42579
 444.70; 0.42937
 445.30; 0.43790
 445.89; 0.43955
 446.49; 0.44855
 447.08; 0.44358
 447.68; 0.45250
 448.27; 0.45190
 448.87; 0.46525
 449.46; 0.47002
 450.06; 0.47942
 450.65; 0.48195
 451.25; 0.49031
 451.84; 0.49600
 452.44; 0.50466
 453.03; 0.50768
 453.63; 0.51884
 454.22; 0.52095
 454.82; 0.52969
 455.41; 0.52849
 456.00; 0.53935
 456.60; 0.54673
 457.19; 0.55634
 457.79; 0.56256
 458.38; 0.56677
 458.98; 0.57336
 459.57; 0.58232
 460.17; 0.58871
 460.76; 0.59888
 461.35; 0.60598
 461.95; 0.61945
 462.54; 0.62395
 463.14; 0.62888
 463.73; 0.62767
 464.33; 0.63828
 464.92; 0.64443
 465.51; 0.65517
 466.11; 0.66200
 466.70; 0.67411
 467.30; 0.67721
 467.89; 0.68209
 468.48; 0.68609
 469.08; 0.70070
 469.67; 0.70720
 470.26; 0.71995
 470.86; 0.72793
 471.45; 0.73807
 472.05; 0.74244
 472.64; 0.74498
 473.23; 0.74742
 473.83; 0.75574
 474.42; 0.76315
 475.01; 0.77248
 475.61; 0.77542
 476.20; 0.78648
 476.79; 0.79651
 477.39; 0.80753
 477.98; 0.81471
 478.57; 0.82083
 479.17; 0.82550
 479.76; 0.83750
 480.35; 0.84371
 480.95; 0.85544
 481.54; 0.86107
 482.13; 0.87208
 482.73; 0.88002
 483.32; 0.88741
 483.91; 0.89689
 484.51; 0.90762
 485.10; 0.91841
 485.69; 0.92999
 486.29; 0.93926
 486.88; 0.95087
 487.47; 0.95896
 488.06; 0.96825
 488.66; 0.97661
 489.25; 0.98649
 489.84; 0.99511
 490.43; 1.00457
 491.03; 1.01258
 491.62; 1.02443
 492.21; 1.03423
 492.80; 1.04707
 493.40; 1.05650
 493.99; 1.06975
 494.58; 1.07884
 495.17; 1.09189
 495.77; 1.09734
 496.36; 1.10935
 496.95; 1.11874
 497.54; 1.13075
 498.14; 1.13930
 498.73; 1.15077
 499.32; 1.16101
 499.91; 1.17356
 500.51; 1.18177
 501.10; 1.19446
 501.69; 1.20458
 502.28; 1.21726
 502.87; 1.23026
 503.47; 1.24532
 504.06; 1.25661
 504.65; 1.26778
 505.24; 1.27638
 505.83; 1.28825
 506.42; 1.29989
 507.02; 1.31513
 507.61; 1.32956
 508.20; 1.34403
 508.79; 1.35484
 509.38; 1.36696
 509.97; 1.37691
 510.57; 1.39032
 511.16; 1.40248
 511.75; 1.41704
 512.34; 1.42835
 512.93; 1.44277
 513.52; 1.45599
 514.11; 1.47208
 514.71; 1.48575
 515.30; 1.50085
 515.89; 1.51199
 516.48; 1.52414
 517.07; 1.53332
 517.66; 1.54710
 518.25; 1.55832
 518.84; 1.57281
 519.43; 1.58187
 520.03; 1.59495
 520.62; 1.60858
 521.21; 1.62728
 521.80; 1.64126
 522.39; 1.65661
 522.98; 1.66901
 523.57; 1.68409
 524.16; 1.69526
 524.75; 1.71002
 525.34; 1.72150
 525.93; 1.73367
 526.52; 1.74758
 527.12; 1.76186
 527.71; 1.77890
 528.30; 1.79431
 528.89; 1.81106
 529.48; 1.82599
 530.07; 1.83800
 530.66; 1.84987
 531.25; 1.86517
 531.84; 1.88283
 532.43; 1.90162
 533.02; 1.91958
 533.61; 1.93382
 534.20; 1.95034
 534.79; 1.95998
 535.38; 1.97721
 535.97; 1.99211
 536.56; 2.01105
 537.15; 2.02624
 537.74; 2.04365
 538.33; 2.06254
 538.92; 2.08188
 539.51; 2.09507
 540.10; 2.10979
 540.69; 2.12127
 541.28; 2.14125
 541.87; 2.16091
 542.46; 2.18206
 543.05; 2.19617
 543.64; 2.21217
 544.23; 2.22763
 544.82; 2.24551
 545.41; 2.25893
 546.00; 2.27567
 546.59; 2.29661
 547.17; 2.31434
 547.76; 2.33253
 548.35; 2.34833
 548.94; 2.37001
 549.53; 2.38805
 550.12; 2.40177
 550.71; 2.41862
 551.30; 2.43554
 551.89; 2.45629
 552.48; 2.47167
 553.07; 2.49097
 553.66; 2.50982
 554.24; 2.53100
 554.83; 2.54572
 555.42; 2.56693
 556.01; 2.58785
 556.60; 2.60721
 557.19; 2.61729
 557.78; 2.63058
 558.37; 2.65171
 558.96; 2.67546
 559.54; 2.69914
 560.13; 2.71684
 560.72; 2.73607
 561.31; 2.75022
 561.90; 2.76946
 562.49; 2.79193
 563.08; 2.81551
 563.66; 2.83741
 564.25; 2.85479
 564.84; 2.87324
 565.43; 2.89143
 566.02; 2.90980
 566.61; 2.92887
 567.19; 2.95086
 567.78; 2.97141
 568.37; 2.99323
 568.96; 3.01461
 569.55; 3.03560
 570.13; 3.05254
 570.72; 3.06988
 571.31; 3.08842
 571.90; 3.11202
 572.49; 3.13232
 573.07; 3.15796
 573.66; 3.17655
 574.25; 3.20401
 574.84; 3.22465
 575.43; 3.25326
 576.01; 3.26603
 576.60; 3.28870
 577.19; 3.30662
 577.78; 3.33641
 578.36; 3.36406
 578.95; 3.38955
 579.54; 3.41295
 580.13; 3.43229
 580.71; 3.45485
 581.30; 3.46982
 581.89; 3.48768
 582.48; 3.50863
 583.06; 3.53116
 583.65; 3.55416
 584.24; 3.57847
 584.82; 3.60562
 585.41; 3.63177
 586.00; 3.65232
 586.59; 3.67561
 587.17; 3.69642
 587.76; 3.71183
 588.35; 3.73596
 588.93; 3.75744
 589.52; 3.78623
 590.11; 3.81065
 590.69; 3.84005
 591.28; 3.86615
 591.87; 3.88570
 592.45; 3.90575
 593.04; 3.92764
 593.63; 3.95306
 594.21; 3.98491
 594.80; 4.00848
 595.39; 4.03122
 595.97; 4.05436
 596.56; 4.08542
 597.15; 4.11321
 597.73; 4.13374
 598.32; 4.15144
 598.91; 4.17162
 599.49; 4.19440
 600.08; 4.22375
 600.66; 4.25368
 601.25; 4.28260
 601.84; 4.31017
 602.42; 4.33180
 603.01; 4.35200
 603.60; 4.37550
 604.18; 4.40397
 604.77; 4.43341
 605.35; 4.45931
 605.94; 4.48489
 606.53; 4.50856
 607.11; 4.53443
 607.70; 4.55794
 608.28; 4.58578
 608.87; 4.60896
 609.45; 4.64214
 610.04; 4.67033
 610.63; 4.70126
 611.21; 4.71725
 611.80; 4.74252
 612.38; 4.76639
 612.97; 4.80427
 613.55; 4.82857
 614.14; 4.85850
 614.72; 4.88442
 615.31; 4.91321
 615.89; 4.93773
 616.48; 4.96156
 617.06; 4.98500
 617.65; 5.01002
 618.23; 5.02865
 618.82; 5.05350
 619.40; 5.08598
 619.99; 5.11669
 620.57; 5.14573
 621.16; 5.17056
 621.74; 5.19825
 622.33; 5.22732
 622.91; 5.24713
 623.50; 5.27695
 624.08; 5.30668
 624.67; 5.33593
 625.25; 5.36535
 625.84; 5.38848
 626.42; 5.41792
 627.01; 5.45155
 627.59; 5.48208
 628.18; 5.51388
 628.76; 5.53975
 629.35; 5.57265
 629.93; 5.59891
 630.51; 5.62813
 631.10; 5.65714
 631.68; 5.68546
 632.27; 5.70355
 632.85; 5.72857
 633.44; 5.75509
 634.02; 5.78496
 634.60; 5.82314
 635.19; 5.86141
 635.77; 5.89475
 636.36; 5.91169
 636.94; 5.93270
 637.52; 5.95260
 638.11; 5.97728
 638.69; 6.00821
 639.28; 6.03871
 639.86; 6.06269
 640.44; 6.08891
 641.03; 6.12804
 641.61; 6.16294
 642.19; 6.19096
 642.78; 6.21070
 643.36; 6.23771
 643.94; 6.27489
 644.53; 6.31601
 645.11; 6.35313
 645.70; 6.38225
 646.28; 6.41152
 646.86; 6.44858
 647.45; 6.47822
 648.03; 6.50929
 648.61; 6.53905
 649.19; 6.56512
 649.78; 6.60094
 650.36; 6.62508
 650.94; 6.65863
 651.53; 6.69059
 652.11; 6.72851
 652.69; 6.76789
 653.28; 6.79860
 653.86; 6.83051
 654.44; 6.86313
 655.02; 6.87541
 655.61; 6.89817
 656.19; 6.91629
 656.77; 6.96733
 657.36; 6.99785
 657.94; 7.03550
 658.52; 7.06024
 659.10; 7.09258
 659.69; 7.11310
 660.27; 7.14967
 660.85; 7.19066
 661.43; 7.23948
 662.02; 7.27443
 662.60; 7.31138
 663.18; 7.35119
 663.76; 7.38721
 664.35; 7.41701
 664.93; 7.46307
 665.51; 7.51042
 666.09; 7.55534
 666.67; 7.58473
 667.26; 7.61485
 667.84; 7.65549
 668.42; 7.69015
 669.00; 7.71223
 669.58; 7.72992
 670.17; 7.75730
 670.75; 7.79090
 671.33; 7.83285
 671.91; 7.85586
 672.49; 7.89575
 673.07; 7.92668
 673.66; 7.97053
 674.24; 7.98782
 674.82; 8.00430
 675.40; 8.02004
 675.98; 8.05736
 676.56; 8.09772
 677.15; 8.13938
 677.73; 8.17711
 678.31; 8.20787
 678.89; 8.23869
 679.47; 8.26541
 680.05; 8.28906
 680.63; 8.30876
 681.21; 8.35012
 681.80; 8.38754
 682.38; 8.43212
 682.96; 8.46606
 683.54; 8.49055
 684.12; 8.52930
 684.70; 8.55784
 685.28; 8.60238
 685.86; 8.63981
 686.44; 8.68670
 687.02; 8.72586
 687.60; 8.75619
 688.19; 8.78654
 688.77; 8.82763
 689.35; 8.86029
 689.93; 8.87466
 690.51; 8.90564
 691.09; 8.94807
 691.67; 8.98975
 692.25; 9.00585
 692.83; 9.03636
 693.41; 9.08348
 693.99; 9.13130
 694.57; 9.17498
 695.15; 9.21385
 695.73; 9.25350
 696.31; 9.28359
 696.89; 9.30051
 697.47; 9.32585
 698.05; 9.35158
 698.63; 9.38532
 699.21; 9.42783
 699.79; 9.45926
 700.37; 9.52036
 700.95; 9.54770
 701.53; 9.58773
 702.11; 9.59405
 702.69; 9.62833
 703.27; 9.66113
 703.85; 9.70586
 704.43; 9.72250
 705.01; 9.75035
 705.59; 9.78264
 706.17; 9.84492
 706.75; 9.89347
 707.33; 9.93942
 707.91; 9.96849
 708.49; 9.98904
 709.07;10.02049
 709.64;10.07150
 710.22;10.11215
 710.80;10.15023
 711.38;10.17999
 711.96;10.21003
 712.54;10.22179
 713.12;10.25045
 713.70;10.29005
 714.28;10.33107
 714.86;10.37435
 715.44;10.41529
 716.01;10.45731
 716.59;10.49519
 717.17;10.53599
 717.75;10.57242
 718.33;10.58979
 718.91;10.59751
 719.49;10.61536
 720.07;10.64147
 720.64;10.68706
 721.22;10.73387
 721.80;10.77909
 722.38;10.81859
 722.96;10.85266
 723.54;10.89063
 724.12;10.91853
 724.69;10.94503
 725.27;10.99345
 725.85;11.03952
 726.43;11.08524
 727.01;11.12812
 727.58;11.17022
 728.16;11.21612
 728.74;11.22441
 729.32;11.26030
 729.90;11.30798
 730.47;11.36852
 731.05;11.39792
 731.63;11.41011
 732.21;11.42865
 732.79;11.46767
 733.36;11.53045
 733.94;11.57763
 734.52;11.60272
 735.10;11.62373
 735.67;11.65808
 736.25;11.71672
 736.83;11.76307
 737.41;11.82525
 737.98;11.85108
 738.56;11.86929
 739.14;11.87036
 739.72;11.91123
 740.29;11.96839
 740.87;12.01829
 741.45;12.04590
 742.02;12.07507
 742.60;12.11362
 743.18;12.17707
 743.76;12.21123
 744.33;12.23641
 744.91;12.25978
 745.49;12.29501
 746.06;12.33697
 746.64;12.36163
 747.22;12.38983
 747.79;12.43295
 748.37;12.48033
 748.95;12.52777
 749.52;12.57303
 750.10;12.60152
 750.68;12.62211
 751.25;12.65308
 751.83;12.70887
 752.41;12.78884
 752.98;12.85652
 753.56;12.89242
 754.14;12.91289
 754.71;12.92785
 755.29;12.97031
 755.86;13.01109
 756.44;13.06325
 757.02;13.08672
 757.59;13.09202
 758.17;13.08885
 758.75;13.13250
 759.32;13.18245
 759.90;13.20774
 760.47;13.24633
 761.05;13.26106
 761.62;13.33565
 762.20;13.38049
 762.78;13.44659
 763.35;13.47414
 763.93;13.50999
 764.50;13.55385
 765.08;13.60218
 765.65;13.62664
 766.23;13.66919
 766.81;13.70162
 767.38;13.73903
 767.96;13.77955
 768.53;13.84177
 769.11;13.88286
 769.68;13.92567
 770.26;13.92012
 770.83;13.97531
 771.41;14.00167
 771.98;14.05516
 772.56;14.08816
 773.13;14.17335
 773.71;14.21483
 774.28;14.24842
 774.86;14.22226
 775.43;14.24656
 776.01;14.26271
 776.58;14.33129
 777.16;14.40123
 777.73;14.45963
 778.31;14.49898
 778.88;14.52756
 779.46;14.60037
 780.03;14.64646
 780.61;14.66290
 781.18;14.64551
 781.75;14.63904
 782.33;14.69163
 782.90;14.74782
 783.48;14.82461
 784.05;14.87815
 784.63;14.91244
 785.20;14.91664
 785.77;14.93291
 786.35;14.99047
 786.92;15.05040
 787.50;15.09632
 788.07;15.10523
 788.64;15.14077
 789.22;15.19421
 789.79;15.30076
 790.37;15.39651
 790.94;15.42732
 791.51;15.40805
 792.09;15.38320
 792.66;15.42386
 793.23;15.45902
 793.81;15.54179
 794.38;15.56935
 794.96;15.62262
 795.53;15.64799
 796.10;15.71964
 796.68;15.75331
 797.25;15.78310
 797.82;15.76256
 798.40;15.79529
 798.97;15.83737
 799.54;15.94767
 800.12;16.01069
 800.69;16.05055
 801.26;16.04422
 801.83;16.07731
 802.41;16.12771
 802.98;16.16184
 803.55;16.19988
 804.13;16.23552
 804.70;16.29102
 805.27;16.30965
 805.84;16.30460
 806.42;16.33303
 806.99;16.39510
 807.56;16.45614
 808.14;16.50392
 808.71;16.52843
 809.28;16.53191
 809.85;16.52449
 810.43;16.53414
 811.00;16.59093
 811.57;16.67604
 812.14;16.75994
 812.71;16.80723
 813.29;16.82852
 813.86;16.86998
 814.43;16.93654
 815.00;16.97491
 815.58;16.97496
 816.15;17.00357
 816.72;17.07443
 817.29;17.16173
 817.86;17.21380
 818.44;17.22602
 819.01;17.24911
 819.58;17.31768
 820.15;17.37636
 820.72;17.40656
 821.29;17.38905
 821.87;17.45832
 822.44;17.51938
 823.01;17.53778
 823.58;17.57104
 824.15;17.61503
 824.72;17.69258
 825.29;17.65779
 825.87;17.66255
 826.44;17.68713
 827.01;17.74154
 827.58;17.76150
 828.15;17.80364
 828.72;17.89412
 829.29;17.92750
 829.86;17.96750
 830.44;17.98370
 831.01;18.03620
 831.58;18.08119
 832.15;18.11719
 832.72;18.14150
 833.29;18.15126
 833.86;18.17285
 834.43;18.24300
 835.00;18.31472
 835.57;18.37846
 836.14;18.40816
 836.71;18.43115
 837.28;18.43374
 837.86;18.50580
 838.43;18.54345
 839.00;18.60342
 839.57;18.64641
 840.14;18.72143
 840.71;18.76825
 841.28;18.73567
 841.85;18.70210
 842.42;18.67724
 842.99;18.74346
 843.56;18.81558
 844.13;18.91605
 844.70;18.96954
 845.27;18.96029
 845.84;18.96235
 846.41;18.95938
 846.98;19.05754
 847.55;19.15358
 848.12;19.16950
 848.69;19.12138
 849.26;19.09028
 849.83;19.16724
 850.40;19.24561
 850.97;19.31326
 851.53;19.33153
 852.10;19.38883
 852.67;19.43566
 853.24;19.48760
 853.81;19.51072
 854.38;19.58642
 854.95;19.61455
 855.52;19.61756
 856.09;19.53597
 856.50;19.53841
 856.66;19.39661
 857.23;17.89382
 857.80;14.73019
 858.37; 9.88936
 858.93; 3.32715
 859.50;-4.91367
 860.07;-14.84619
 860.64;-26.38664
 860.80;-29.79264
 861.21;-29.26418
 861.78;-26.99342
 862.35;-23.03579
 862.92;-17.36934
 863.48;-9.95545
 864.05;-0.79826
 864.62;10.14623
 865.08;20.29402
 865.19;20.29351
 865.76;20.34010
 866.33;20.34432
 866.90;20.33654
 867.46;20.29069
 868.03;20.26443
 868.60;20.30664
 869.17;20.32441
 869.37;20.33602
 869.74;20.39187
 870.31;20.40885
 870.87;20.44193
 871.44;20.46742
 872.01;20.55424
 872.58;20.66098
 873.15;20.74606
 873.65;20.75718
 873.71;20.75678
 874.28;20.70235
 874.85;20.70243
 875.42;20.75276
 875.98;20.79890
 876.55;20.84020
 877.12;20.83440
 877.69;20.83956
 877.93;20.85790
 878.25;20.89141
 878.82;20.98315
 879.39;21.14510
 879.96;21.18049
 880.52;21.19806
 881.09;21.12851
 881.66;21.14124
 882.20;21.15191
 882.23;21.15187
 882.79;21.19680
 883.36;21.31356
 883.93;21.44199
 884.50;21.51546
 885.06;21.47632
 885.63;21.46125
 886.20;21.47024
 886.47;21.47413
 886.76;21.48463
 887.33;21.49152
 887.90;21.55510
 888.46;21.64656
 889.03;21.68998
 889.60;21.70550
 890.16;21.75336
 890.73;21.89736
 890.74;21.89905
 891.30;21.94778
 891.86;21.95073
 892.43;21.93112
 893.00;21.94790
 893.56;21.99282
 894.13;22.02566
 894.70;22.03679
 895.01;22.04481
 895.26;22.06495
 895.83;22.10559
 896.39;22.18274
 896.96;22.20802
 897.53;22.27670
 898.09;22.38867
 898.66;22.48854
 899.22;22.56924
 899.27;22.56845
 899.79;22.54203
 900.36;22.56736
 900.92;22.56805
 901.49;22.61733
 902.05;22.69958
 902.62;22.73042
 903.19;22.76005
 903.53;22.74662
 903.75;22.73438
 904.32;22.71196
 904.88;22.72939
 905.45;22.78377
 906.01;22.85944
 906.58;22.93950
 907.14;22.96849
 907.71;23.00036
 907.78;22.99811
 908.28;23.00340
 908.84;23.09961
 909.41;23.13048
 909.97;23.19605
 910.54;23.19221
 911.10;23.24961
 911.67;23.28858
 912.04;23.30207
 912.23;23.30412
 912.80;23.30907
 913.36;23.33307
 913.93;23.36045
 914.49;23.38494
 915.06;23.38743
 915.62;23.44745
 916.19;23.52651
 916.28;23.53549
 916.75;23.58126
 917.31;23.62068
 917.88;23.67996
 918.44;23.80963
 919.01;23.86083
 919.57;23.86878
 920.14;23.85289
 920.53;23.87861
 920.70;23.88792
 921.27;23.92001
 921.83;23.93114
 922.39;23.96189
 922.96;23.99826
 923.52;24.03634
 924.09;24.03634
 924.65;24.02050
 924.77;24.02833
 925.22;24.05483
 925.78;24.13136
 926.34;24.21179
 926.91;24.20837
 927.47;24.16944
 928.03;24.17300
 928.60;24.20718
 929.01;24.26623
 929.16;24.28805
 929.73;24.29954
 930.29;24.33468
 930.85;24.30787
 931.42;24.32747
 931.98;24.35232
 932.54;24.41434
 933.11;24.48189
 933.25;24.50529
 933.67;24.57858
 934.23;24.63947
 934.80;24.67406
 935.36;24.66285
 935.92;24.73376
 936.49;24.73037
 937.05;24.72535
 937.48;24.69959
 937.61;24.69072
 938.18;24.77232
 938.74;24.86942
 939.30;24.90728
 939.87;24.95671
 940.43;24.97378
 940.99;25.00555
 941.55;24.99313
 941.71;24.99303
 942.12;24.99401
 942.68;25.04226
 943.24;25.07590
 943.80;25.13826
 944.37;25.18271
 944.93;25.22823
 945.49;25.21642
 945.94;25.21068
 946.05;25.20993
 946.62;25.18105
 947.18;25.23528
 947.74;25.24525
 948.30;25.28199
 948.87;25.32877
 949.43;25.38121
 949.99;25.49619
 950.16;25.49850
 950.55;25.49885
 951.11;25.50670
 951.68;25.53837
 952.24;25.54647
 952.80;25.57894
 953.36;25.58570
 953.92;25.64727
 954.38;25.67116
 954.49;25.67729
 955.05;25.71684
 955.61;25.74083
 956.17;25.76820
 956.73;25.77021
 957.29;25.79851
 957.86;25.80265
 958.42;25.79979
 958.60;25.79984
 958.98;25.79882
 959.54;25.83984
 960.10;25.84108
 960.66;25.86618
 961.22;25.94036
 961.79;26.01529
 962.35;25.99661
 962.81;26.01468
 962.91;26.01890
 963.47;26.06783
 964.03;26.18924
 964.59;26.18594
 965.15;26.16156
 965.71;26.14602
 966.27;26.14262
 966.83;26.18427
 967.03;26.21060
 967.40;26.25914
 967.96;26.32560
 968.52;26.34617
 969.08;26.35457
 969.64;26.42336
 970.20;26.46956
 970.76;26.48369
 971.23;26.49555
 971.32;26.49791
 971.88;26.56597
 972.44;26.61841
 973.00;26.64495
 973.56;26.64651
 974.12;26.67460
 974.68;26.68408
 975.24;26.71364
 975.44;26.71206
 975.80;26.70801
 976.36;26.76946
 976.92;26.86383
 977.48;26.99512
 978.04;27.02792
 978.60;27.02590
 979.16;26.95480
 979.64;26.95209
 979.72;26.95152
 980.28;26.93202
 980.84;26.98920
 981.40;26.98145
 981.96;27.03973
 982.52;27.02490
 983.08;27.06788
 983.64;27.06931
 983.84;27.09833
 984.20;27.15417
 984.76;27.20375
 985.32;27.22148
 985.88;27.22775
 986.44;27.23037
 987.00;27.26600
 987.55;27.26217
 988.04;27.27502
 988.11;27.27640
 988.67;27.32750
 989.23;27.33167
 989.79;27.40431
 990.35;27.37526
 990.91;27.46789
 991.47;27.48632
 992.03;27.52754
 992.23;27.52993
 992.59;27.53248
 993.14;27.55103
 993.70;27.59615
 994.26;27.59327
 994.82;27.58181
 995.38;27.54506
 995.94;27.53867
 996.42;27.55431
 996.50;27.55747
 997.05;27.60612
 997.61;27.64200
 998.17;27.65132
 998.73;27.68946
 999.29;27.72585
 999.85;27.77725
1000.40;27.77779
1000.61;27.78677
1000.96;27.80075
1001.52;27.81159
1002.08;27.87642
1002.64;27.93852
1003.19;28.02749
1003.75;28.07720
1004.31;28.09414
1004.79;28.10278
1004.87;28.10377
1005.43;28.12109
1005.98;28.16699
1006.54;28.19540
1007.10;28.15111
1007.66;28.13553
1008.21;28.14206
1008.77;28.19793
1008.97;28.19146
1009.33;28.18234
1009.89;28.20118
1010.44;28.21203
1011.00;28.24022
1011.56;28.25117
1012.12;28.26795
1012.67;28.32131
1013.15;28.35841
1013.23;28.36450
1013.79;28.38093
1014.34;28.42370
1014.90;28.41383
1015.46;28.47873
1016.01;28.45416
1016.57;28.48944
1017.13;28.46325
1017.32;28.46402
1017.69;28.46698
1018.24;28.46782
1018.80;28.50863
1019.36;28.57246
1019.91;28.62770
1020.47;28.64611
1021.03;28.70216
1021.50;28.71882
1021.58;28.72189
1022.14;28.76246
1022.69;28.73746
1023.25;28.74971
1023.81;28.79086
1024.36;28.85898
1024.92;28.86556
1025.48;28.87067
1025.66;28.86359
1026.03;28.85049
1026.59;28.91500
1027.14;28.92551
1027.70;28.98760
1028.26;28.95564
1028.81;28.97898
1029.37;28.93731
1029.83;28.98460
1029.92;28.99305
1030.48;29.01785
1031.03;29.10179
1031.59;29.12332
1032.15;29.13246
1032.70;29.12849
1033.26;29.14681
1033.81;29.15045
1033.99;29.16382
1034.37;29.19115
1034.92;29.19387
1035.48;29.21027
1036.03;29.17211
1036.59;29.14885
1037.14;29.12909
1037.70;29.21158
1038.15;29.27044
1038.26;29.28447
1038.81;29.38571
1039.37;29.33452
1039.92;29.31361
1040.48;29.28816
1041.03;29.35832
1041.58;29.38344
1042.14;29.42814
1042.31;29.42429
1042.69;29.41437
1043.25;29.45465
1043.80;29.44340
1044.36;29.52858
1044.91;29.55863
1045.47;29.60644
1046.02;29.59519
1046.47;29.62708
1046.58;29.63502
1047.13;29.61148
1047.69;29.62283
1048.24;29.58342
1048.79;29.65019
1049.35;29.65985
1049.90;29.70379
1050.46;29.73135
1050.62;29.73797
1051.01;29.75299
1051.56;29.76663
1052.12;29.74430
1052.67;29.72103
1053.23;29.77468
1053.78;29.82378
1054.33;29.92252
1054.77;29.91237
1054.89;29.90932
1055.44;29.91054
1056.00;29.89732
1056.55;29.92650
1057.10;29.92466
1057.66;29.90257
1058.21;29.87367
1058.76;29.94847
1058.91;29.95341
1059.32;29.97097
1059.87;30.06949
1060.42;30.04914
1060.98;30.10582
1061.53;30.09582
1062.08;30.18943
1062.64;30.19555
1063.05;30.22486
1063.19;30.23121
1063.74;30.19666
1064.29;30.21066
1064.85;30.20164
1065.40;30.24216
1065.95;30.28474
1066.51;30.28155
1067.06;30.22888
1067.19;30.22892
1067.61;30.23585
1068.16;30.24916
1068.72;30.29841
1069.27;30.32227
1069.82;30.34340
1070.37;30.36392
1070.93;30.39458
1071.33;30.43611
1071.48;30.45149
1072.03;30.46600
1072.58;30.48723
1073.14;30.52700
1073.69;30.53463
1074.24;30.56898
1074.79;30.54947
1075.34;30.58872
1075.47;30.58561
1075.90;30.57028
1076.45;30.62073
1077.00;30.65069
1077.55;30.67903
1078.10;30.67943
1078.66;30.68980
1079.21;30.71791
1079.60;30.73542
1079.76;30.74308
1080.31;30.74458
1080.86;30.79428
1081.41;30.78882
1081.97;30.83772
1082.52;30.79970
1083.07;30.83322
1083.62;30.82186
1083.73;30.83731
1084.17;30.89420
1084.72;30.90593
1085.27;30.94064
1085.82;30.90240
1086.38;30.92739
1086.93;30.91614
1087.48;30.95130
1087.85;30.93994
1088.03;30.93821
1088.58;30.97202
1089.13;30.95863
1089.68;30.98615
1090.23;31.00396
1090.78;31.04701
1091.33;31.05331
1091.88;31.09225
1091.98;31.09311
1092.43;31.09277
1092.99;31.13093
1093.54;31.13313
1094.09;31.17347
1094.64;31.18913
1095.19;31.21709
1095.74;31.21732
1096.10;31.23224
1096.29;31.24045
1096.84;31.24908
1097.39;31.27263
1097.94;31.28309
1098.49;31.30725
1099.04;31.32508
1099.59;31.34544
1100.14;31.36129
1100.21;31.36319
1104.33;31.46625
1108.44;31.62972
1112.55;31.71970
1116.66;31.80538
1120.76;31.91537
1124.86;31.94596
1128.96;32.12119
1133.06;32.18516
1137.15;32.21832
1141.24;32.31567
1145.33;32.44656
1149.41;32.48779
1153.49;32.55294
1157.57;32.70514
1161.65;32.74854
1165.73;32.83000
1169.80;32.84423
1173.87;32.97054
1177.93;32.97409
1182.00;33.06135
1186.06;33.08122
1190.12;33.15210
1194.18;33.23731
1198.23;33.29738
1202.28;33.40421
1206.33;33.45236
1210.38;33.45205
1214.42;33.53052
1218.46;33.60151
1222.50;33.61934
1226.54;33.66717
1230.57;33.67043
1234.60;33.69345
1238.63;33.74659
1242.66;33.75225
1246.68;33.81767
1250.70;33.84597
1254.72;33.85576
1258.74;33.89975
1262.76;33.92253
1266.77;34.04789
1270.78;34.03286
1274.79;33.97409
1278.79;33.98885
1282.79;33.97607
1286.80;33.99076
1290.79;34.03503
1294.79;34.02633
1298.78;34.03619
1302.77;34.04048
1306.76;33.99565
1310.75;34.01067
1314.74;34.02640
1318.72;34.00246
1322.70;34.06342
1326.68;34.10668
1330.65;34.10326
1334.63;34.02219
1338.60;33.95667
1342.57;34.03609
1346.53;34.00797
1350.50;33.96901
1354.46;33.99595
1358.42;34.00742
1362.38;33.96253
1366.34;33.97045
1370.29;33.91197
1374.24;33.89681
1378.19;33.77731
1382.14;33.82487
1386.09;33.82527
1390.03;33.82689
1393.97;33.79865
1397.91;33.74480
1401.85;33.71614
1405.78;33.78646
1409.72;33.68539
1413.65;33.71135
1417.58;33.67263
1421.51;33.62409
1425.43;33.62452
1429.36;33.58682
1433.28;33.50101
1437.20;33.46953
1441.12;33.45076
1445.03;33.46280
1448.95;33.39576
1452.86;33.44728
1456.77;33.32514
1460.68;33.24377
1464.58;33.19174
1468.49;33.17186
1472.39;33.16055
1476.29;33.11595
1480.19;33.08898
1484.09;33.01138
1487.98;33.00016
1491.88;32.86003
1495.77;32.70054
1499.66;32.68796
1503.55;32.70905
1507.43;32.69308
1511.32;32.65229
1515.20;32.50572
1519.08;32.50497
1522.96;32.43369
1526.84;32.39570
1530.71;32.41424
1534.59;32.23949
1538.46;32.19229
1542.33;32.14947
1546.20;32.06188
1550.07;32.07163
1553.94;32.06401
1557.80;31.94150
1561.66;31.86815
1565.52;31.80596
1569.38;31.78219
1573.24;31.73562
1577.10;31.64889
1580.95;31.52672
1584.80;31.48642
1588.66;31.38578
1592.51;31.38038
1596.35;31.32143
1600.20;31.23901
1604.05;31.24238
1607.89;31.23812
1611.73;31.04588
1615.57;30.99344
1619.41;30.93571
1623.25;30.87370
1627.09;30.72894
1630.92;30.68347
1634.76;30.65605
1638.59;30.54919
1642.42;30.52003
1646.25;30.52467
1650.08;30.38079
1653.90;30.30489
1657.73;30.23647
1661.55;30.29254
1665.37;30.23400
1669.20;30.12999
1673.02;30.04544
1676.83;30.03115
1680.65;29.94985
1684.47;29.83588
1688.28;29.82809
1692.09;29.87163
1695.91;29.79855
1699.72;29.58288
1703.53;29.54174
1707.33;29.48440
1711.14;29.36891
1714.95;29.24702
1718.75;29.13911
1722.55;29.15744
1726.35;29.10507
1730.16;29.02608
1733.96;28.76232
1737.75;28.66030
1741.55;28.51053

